# Iron in Iron from SRIM
# energy (eV), electronic stopping (eV/A)
0.0 0.0
1.1 0.1196
1.2 0.1196
1.3 0.1244
1.4 0.1291
1.5 0.1337
1.6 0.1381
1.7 0.1423
1.8 0.1464
2.0 0.1544
2.25 0.1637
2.49999 0.1726
2.74999 0.181
2.99999 0.1891
3.24999 0.1968
3.49999 0.2042
3.74999 0.2114
3.99999 0.2183
4.49999 0.2315
4.99999 0.2441
5.49999 0.256
5.99999 0.2674
6.49999 0.2783
6.99999 0.2888
7.99999 0.3087
8.99999 0.3274
9.99999 0.3452
10.9999 0.362
11.9999 0.3781
12.9999 0.3935
13.9999 0.4084
14.9999 0.4227
15.9999 0.4366
16.9999 0.45
17.9999 0.4631
19.9999 0.4881
22.4999 0.5177
24.9999 0.5457
27.4999 0.5724
29.9999 0.5978
32.4999 0.6222
34.9999 0.6457
37.4999 0.6684
39.9999 0.6903
44.9999 0.7322
49.9999 0.7718
54.9999 0.8095
59.9999 0.8455
64.9999 0.88
69.9999 0.9132
79.9999 0.9763
89.9999 1.035
99.9999 1.091
110.0 1.145
120.0 1.196
130.0 1.244
139.999 1.291
149.999 1.337
159.999 1.381
169.999 1.423
179.999 1.464
199.999 1.544
224.999 1.6369999999999998
249.999 1.726
274.999 1.81
299.999 1.891
324.999 1.9680000000000002
349.999 2.042
374.999 2.114
399.999 2.1830000000000003
449.999 2.315
499.999 2.441
549.999 2.56
599.999 2.674
649.999 2.783
699.999 2.888
799.999 3.0869999999999997
899.999 3.2739999999999996
999.999 3.452
1100.0 3.62
1200.0 3.781
1300.0 3.935
1400.0 4.084
1500.0 4.227
1600.0 4.3660000000000005
1700.0 4.5
1800.0 4.631
2000.0 4.881
2250.0 5.1770000000000005
2500.0 5.457000000000001
2750.0 5.724
3000.0 5.978
3250.0 6.222
3500.0 6.457000000000001
3750.0 6.684
4000.0 6.903
4500.0 7.322
5000.0 7.718
5500.0 8.095
6000.0 8.455
6500.0 8.8
7000.0 9.132
8000.0 9.763
9000.0 10.35
10000.0 10.91
11000.0 11.45
12000.0 11.96
13000.0 12.44
14000.0 12.91
15000.0 13.37
16000.0 13.81
17000.0 14.23
18000.0 14.64
20000.0 15.44
22500.0 16.37
25000.0 17.26
27500.0 18.1
30000.0 18.91
32500.0 19.68
35000.0 20.42
37500.0 21.14
40000.0 21.83
45000.0 23.15
50000.0 24.41
55000.0 25.6
60000.0 26.74
65000.0 27.83
70000.0 28.88
80000.0 30.87
90000.0 32.74
100000.0 34.52
110000.0 36.2
120000.0 38.78
130000.0 40.8
140000.0 42.23
150000.0 43.32
160000.0 44.31
170000.0 45.39
180000.0 46.66
200000.0 49.61
225000.0 53.51
250000.0 57.25
275000.0 60.77
300000.0 64.15
325000.0 67.43
350000.0 70.66
375000.0 73.84
400000.0 77.0
450000.0 83.25
500000.0 89.4
550000.0 95.44
600000.0 101.4
650000.0 107.2
700000.0 112.9
800000.0 123.9
900000.0 134.4
1000000.0 144.6
1100000.0 154.5
1200000.0 164.1
1300000.0 173.5
1400000.0 182.7
1500000.0 191.7
1600000.0 200.6
1700000.0 209.4
1800000.0 218.2
2000000.0 235.4
2250000.0 256.6
2500000.0 277.6
2750000.0 298.5
3000000.0 319.1
3250000.0 339.6
3500000.0 360.0
3750000.0 380.2
4000000.0 400.2
4500000.0 439.7
5000000.0 478.4
5500000.0 516.2
6000000.0 553.2
6500000.0 589.1
7000000.0 624.1
8000000.0 691.0
9000000.0 754.0
10000000.0 813.1
